
  1D histogram 3: Scintillation Spectrum
 
 	     X 		     Y
  0	3.007500e-06	0.000000e+00
  1	3.022500e-06	0.000000e+00
  2	3.037500e-06	0.000000e+00
  3	3.052500e-06	0.000000e+00
  4	3.067500e-06	0.000000e+00
  5	3.082500e-06	0.000000e+00
  6	3.097500e-06	0.000000e+00
  7	3.112500e-06	0.000000e+00
  8	3.127500e-06	0.000000e+00
  9	3.142500e-06	1.140070e+05
  10	3.157500e-06	7.185740e+05
  11	3.172500e-06	7.201460e+05
  12	3.187500e-06	7.243190e+05
  13	3.202500e-06	1.395657e+06
  14	3.217500e-06	1.457397e+06
  15	3.232500e-06	1.455309e+06
  16	3.247500e-06	1.455319e+06
  17	3.262500e-06	1.828905e+06
  18	3.277500e-06	2.230980e+06
  19	3.292500e-06	2.229298e+06
  20	3.307500e-06	1.401715e+06
  21	3.322500e-06	1.048980e+06
  22	3.337500e-06	1.048197e+06
  23	3.352500e-06	3.527713e+06
  24	3.367500e-06	3.980082e+06
  25	3.382500e-06	3.981249e+06
  26	3.397500e-06	3.979169e+06
  27	3.412500e-06	3.983745e+06
  28	3.427500e-06	3.980678e+06
  29	3.442500e-06	3.975805e+06
  30	3.457500e-06	3.984272e+06
  31	3.472500e-06	4.809556e+06
  32	3.487500e-06	5.121450e+06
  33	3.502500e-06	4.507766e+06
  34	3.517500e-06	1.660955e+06
  35	3.532500e-06	1.662257e+06
  36	3.547500e-06	1.660842e+06
  37	3.562500e-06	1.662289e+06
  38	3.577500e-06	1.659908e+06
  39	3.592500e-06	1.664691e+06
  40	3.607500e-06	1.663639e+06
  41	3.622500e-06	1.664334e+06
  42	3.637500e-06	1.661429e+06
  43	3.652500e-06	1.663604e+06
  44	3.667500e-06	1.663276e+06
  45	3.682500e-06	4.586177e+06
  46	3.697500e-06	6.642942e+06
  47	3.712500e-06	6.500903e+06
  48	3.727500e-06	6.498160e+06
  49	3.742500e-06	6.500335e+06
  50	3.757500e-06	6.494820e+06
  51	3.772500e-06	6.491647e+06
  52	3.787500e-06	3.819661e+06
  53	3.802500e-06	2.140868e+06
  54	3.817500e-06	2.140533e+06
  55	3.832500e-06	2.145951e+06
  56	3.847500e-06	2.141149e+06
  57	3.862500e-06	2.145043e+06
  58	3.877500e-06	2.142692e+06
  59	3.892500e-06	2.142203e+06
  60	3.907500e-06	2.142950e+06
  61	3.922500e-06	2.198010e+06
  62	3.937500e-06	2.648973e+06
  63	3.952500e-06	2.244362e+06
  64	3.967500e-06	1.258496e+06
  65	3.982500e-06	1.257713e+06
  66	3.997500e-06	1.069266e+06
  67	4.012500e-06	1.063463e+06
  68	4.027500e-06	1.063863e+06
  69	4.042500e-06	1.063194e+06
  70	4.057500e-06	1.065431e+06
  71	4.072500e-06	1.066528e+06
  72	4.087500e-06	1.062931e+06
  73	4.102500e-06	1.061987e+06
  74	4.117500e-06	1.063265e+06
  75	4.132500e-06	1.065341e+06
  76	4.147500e-06	1.064338e+06
  77	4.162500e-06	1.062741e+06
  78	4.177500e-06	8.856450e+05
  79	4.192500e-06	6.214050e+05
  80	4.207500e-06	0.000000e+00
  81	4.222500e-06	0.000000e+00
  82	4.237500e-06	0.000000e+00
  83	4.252500e-06	0.000000e+00
  84	4.267500e-06	0.000000e+00
  85	4.282500e-06	0.000000e+00
  86	4.297500e-06	0.000000e+00
  87	4.312500e-06	0.000000e+00
  88	4.327500e-06	0.000000e+00
  89	4.342500e-06	0.000000e+00
  90	4.357500e-06	0.000000e+00
  91	4.372500e-06	0.000000e+00
  92	4.387500e-06	0.000000e+00
  93	4.402500e-06	0.000000e+00
  94	4.417500e-06	0.000000e+00
  95	4.432500e-06	0.000000e+00
  96	4.447500e-06	0.000000e+00
  97	4.462500e-06	0.000000e+00
  98	4.477500e-06	0.000000e+00
  99	4.492500e-06	0.000000e+00
